File: Assignment 1/nanoparticle_scattering_data_rev.csv
particle concentration [ppm],q [1/A],mean intensity [a.u.],standard deviation of intensity [a.u.],background-subtracted intensity [a.u.],standard deviation of background-subtracted intensity [a.u.]
0.0,0.00269319,2588.1,31.5471,0.0,31.5471
0.0,0.00341137,1296.36,10.1714,0.0,10.1714
0.0,0.00412955,772.431,4.99596,0.0,4.99596
0.0,0.00484774,499.117,6.48345,0.0,6.48345
0.0,0.00556592,342.781,3.3879,0.0,3.3879
0.0,0.0062841,252.86,3.09772,0.0,3.09772
0.0,0.00700229,192.778,1.795,0.0,1.795
0.0,0.00772047,152.375,2.18338,0.0,2.18338
0.0,0.00843865,125.764,1.77991,0.0,1.77991
0.0,0.00915684,104.185,0.490535,0.0,0.490535
0.0,0.00987502,89.06,0.925981,0.0,0.925981
0.0,0.0105932,78.7892,1.27658,0.0,1.27658
0.0,0.0113114,69.5505,0.943593,0.0,0.943593
0.0,0.0120296,63.1421,1.08949,0.0,1.08949
0.0,0.0127477,57.787,0.631574,0.0,0.631574
0.0,0.0134659,53.1367,0.542732,0.0,0.542732
0.0,0.0141841,49.7336,0.652263,0.0,0.652263
0.0,0.0149023,46.6646,0.422376,0.0,0.422376
0.0,0.0156205,44.2094,0.422951,0.0,0.422951
0.0,0.0163387,42.1317,0.376345,0.0,0.376345
0.0,0.0170568,40.1774,0.312218,0.0,0.312218
0.0,0.017775,39.0407,0.503237,0.0,0.503237
0.0,0.0184932,37.6637,0.36515,0.0,0.36515
0.0,0.0192114,36.9787,0.391957,0.0,0.391957
0.0,0.0199296,35.6702,0.522677,0.0,0.522677
0.0,0.0206477,34.895,0.572761,0.0,0.572761
0.0,0.0213659,34.2137,0.445154,0.0,0.445154
0.0,0.0220841,33.6754,0.634768,0.0,0.634768
0.0,0.0228023,33.4205,0.281213,0.0,0.281213
0.0,0.0235204,32.9335,0.376538,0.0,0.376538
0.0,0.0242386,32.4624,0.433142,0.0,0.433142
0.0,0.0249568,31.9794,0.487731,0.0,0.487731
0.0,0.025675,31.6181,0.382164,0.0,0.382164
0.0,0.0263931,31.2266,0.44054,0.0,0.44054
0.0,0.0271113,31.0649,0.197367,0.0,0.197367
0.0,0.0278295,31.2909,0.262623,0.0,0.262623
0.0,0.0285477,30.7251,0.313143,0.0,0.313143
0.0,0.0292658,30.5104,0.474324,0.0,0.474324
0.0,0.029984,30.4643,0.391944,0.0,0.391944
0.0,0.0307022,30.2,0.214517,0.0,0.214517
0.0,0.0314204,30.2266,0.200632,0.0,0.200632
0.0,0.0321385,30.2737,0.133785,0.0,0.133785
0.0,0.0328567,30.0061,0.260831,0.0,0.260831
0.0,0.0335749,29.8605,0.568489,0.0,0.568489
0.0,0.0342931,29.964,0.21145,0.0,0.21145
0.0,0.0350112,30.0313,0.296226,0.0,0.296226
0.0,0.0357294,29.6861,0.209558,0.0,0.209558
0.0,0.0364476,29.6339,0.176573,0.0,0.176573
0.0,0.0371657,29.5073,0.316467,0.0,0.316467
0.0,0.0378839,29.4956,0.234585,0.0,0.234585
0.0,0.0386021,29.4084,0.211059,0.0,0.211059
0.0,0.0393202,29.3712,0.385137,0.0,0.385137
0.0,0.0400384,29.5145,0.263594,0.0,0.263594
0.0,0.0407566,29.4273,0.311596,0.0,0.311596
0.0,0.0414747,29.5485,0.27194,0.0,0.27194
0.0,0.0421929,29.3566,0.332779,0.0,0.332779
0.0,0.0429111,29.514,0.181779,0.0,0.181779
0.0,0.0436292,29.3142,0.180111,0.0,0.180111
0.0,0.0443474,29.4829,0.198682,0.0,0.198682
0.0,0.0450655,29.289,0.18299,0.0,0.18299
0.0,0.0457837,29.3936,0.293864,0.0,0.293864
0.0,0.0465019,29.1163,0.19752,0.0,0.19752
0.0,0.04722,29.0328,0.2176,0.0,0.2176
0.0,0.0479382,29.0729,0.25996,0.0,0.25996
0.0,0.0486563,29.2072,0.113141,0.0,0.113141
0.0,0.0493745,29.1941,0.157293,0.0,0.157293
0.0,0.0500927,29.3345,0.157008,0.0,0.157008
0.0,0.0508108,29.1984,0.18456,0.0,0.18456
0.0,0.051529,29.0475,0.22723,0.0,0.22723
0.0,0.0522471,28.9633,0.202427,0.0,0.202427
0.0,0.0529653,29.0124,0.243905,0.0,0.243905
0.0,0.0536834,28.9232,0.205606,0.0,0.205606
0.0,0.0544016,28.9404,0.229652,0.0,0.229652
0.0,0.0551197,28.9905,0.208592,0.0,0.208592
0.0,0.0558379,28.8613,0.224642,0.0,0.224642
0.0,0.056556,28.6848,0.296675,0.0,0.296675
0.0,0.0572742,28.6461,0.209474,0.0,0.209474
0.0,0.0579923,28.6096,0.188829,0.0,0.188829
0.0,0.0587105,28.5851,0.214929,0.0,0.214929
0.0,0.0594286,28.4564,0.204142,0.0,0.204142
0.0,0.0601468,28.6109,0.233744,0.0,0.233744
0.0,0.0608649,28.6422,0.121328,0.0,0.121328
0.0,0.0615831,28.6223,0.217335,0.0,0.217335
0.0,0.0623012,28.582,0.214767,0.0,0.214767
0.0,0.0630193,28.5857,0.148514,0.0,0.148514
0.0,0.0637375,28.3089,0.189474,0.0,0.189474
0.0,0.0644556,28.432,0.253292,0.0,0.253292
0.0,0.0651738,28.4738,0.151632,0.0,0.151632
0.0,0.0658919,28.4421,0.22579,0.0,0.22579
0.0,0.06661,28.4326,0.238218,0.0,0.238218
0.0,0.0673282,28.3659,0.161174,0.0,0.161174
0.0,0.0680463,28.4754,0.279312,0.0,0.279312
0.0,0.0687644,28.3238,0.19424,0.0,0.19424
0.0,0.0694826,28.3145,0.147444,0.0,0.147444
0.0,0.0702007,28.3453,0.266423,0.0,0.266423
0.0,0.0709188,28.4419,0.205454,0.0,0.205454
0.0,0.0716369,28.307,0.175064,0.0,0.175064
0.0,0.0723551,28.2392,0.173345,0.0,0.173345
0.0,0.0730732,28.3472,0.218633,0.0,0.218633
0.0,0.0737913,28.3179,0.216496,0.0,0.216496
0.0,0.0745094,28.2583,0.176307,0.0,0.176307
0.0,0.0752276,28.4064,0.143538,0.0,0.143538
0.0,0.0759457,28.2426,0.117299,0.0,0.117299
0.0,0.0766638,28.1501,0.137414,0.0,0.137414
0.0,0.0773819,28.2857,0.180494,0.0,0.180494
0.0,0.0781,28.203,0.174736,0.0,0.174736
0.0,0.0788182,28.3365,0.193658,0.0,0.193658
0.0,0.0795363,28.2956,0.113494,0.0,0.113494
0.0,0.0802544,28.2815,0.110283,0.0,0.110283
0.0,0.0809725,28.2396,0.225569,0.0,0.225569
0.0,0.0816906,28.185,0.157571,0.0,0.157571
0.0,0.0824087,28.3046,0.178023,0.0,0.178023
0.0,0.0831268,28.2905,0.176532,0.0,0.176532
0.0,0.0838449,28.2241,0.144722,0.0,0.144722
0.0,0.084563,28.2429,0.177104,0.0,0.177104
0.0,0.0852812,28.3093,0.226589,0.0,0.226589
0.0,0.0859993,28.3131,0.16974,0.0,0.16974
0.0,0.0867174,28.3573,0.129902,0.0,0.129902
0.0,0.0874355,28.4174,0.128146,0.0,0.128146
0.0,0.0881536,28.2635,0.190316,0.0,0.190316
0.0,0.0888717,28.3867,0.152427,0.0,0.152427
0.0,0.0895898,28.3326,0.169458,0.0,0.169458
1e-06,0.00305228,1830.4,11.0094,32.4633,15.4652
1e-06,0.00377046,999.262,5.93268,15.4216,10.1253
1e-06,0.00448865,622.974,6.07489,7.96512,9.84333
1e-06,0.00520683,413.71,3.36637,4.20612,6.6855
1e-06,0.00592501,292.402,3.2796,-0.954717,4.28865
1e-06,0.0066432,221.593,2.7832,0.182759,3.41725
1e-06,0.00736138,171.542,2.27806,0.808696,3.74572
1e-06,0.00807956,138.445,1.56495,0.863768,2.83804
1e-06,0.00879774,114.614,1.26695,0.17013,1.65362
1e-06,0.00951593,97.2517,1.24391,1.38966,1.58062
1e-06,0.0102341,84.2407,0.633685,0.69011,1.24547
1e-06,0.0109523,74.6837,0.934885,0.967347,1.47956
1e-06,0.0116705,66.7486,0.929473,0.610092,1.24169
1e-06,0.0123887,60.7362,0.780174,0.38381,1.08069
1e-06,0.0131068,55.6932,0.7535,0.206838,0.936254
1e-06,0.013825,51.8216,0.551339,0.6336,0.755416
1e-06,0.0145432,48.1468,0.62097,0.11746,0.673045
1e-06,0.0152614,45.5949,0.424262,0.171739,0.709795
1e-06,0.0159796,43.4285,0.705203,0.347682,0.969134
1e-06,0.0166977,41.4075,0.445778,0.438095,0.609849
1e-06,0.0174159,39.8063,0.477298,0.220755,0.573427
1e-06,0.0181341,38.3874,0.736245,0.198204,0.79489
1e-06,0.0188523,37.366,0.449949,-0.0716049,0.501434
1e-06,0.0195705,36.3535,0.475472,0.224419,0.684757
1e-06,0.0202886,35.6419,0.363545,0.38324,0.678768
1e-06,0.0210068,34.6011,0.563972,-0.0594595,0.688622
1e-06,0.021725,34.1811,0.460503,0.296216,0.724543
1e-06,0.0224432,33.3069,0.426938,-0.15665,0.61361
1e-06,0.0231614,32.9934,0.286974,-0.143434,0.445668
1e-06,0.0238795,32.5316,0.244611,-0.148585,0.487736
1e-06,0.0245977,32.1598,0.323299,-0.0648402,0.417212
1e-06,0.0253159,31.9397,0.361532,0.0949772,0.473606
1e-06,0.0260341,31.7421,0.315165,0.338298,0.448627
1e-06,0.0267522,31.4312,0.286254,0.276793,0.429796
1e-06,0.0274704,31.2,0.421436,-0.00588235,0.533852
1e-06,0.0281886,30.743,0.405779,-0.239453,0.528402
1e-06,0.0289068,30.866,0.311092,0.257358,0.45682
1e-06,0.0296249,30.5208,0.462236,-0.00540541,0.658295
1e-06,0.0303431,30.4076,0.441462,0.119636,0.615056
1e-06,0.0310613,30.1115,0.431001,-0.000358423,0.513479
1e-06,0.0317795,30.3055,0.273449,0.05,0.365626
1e-06,0.0324976,29.9659,0.349843,-0.113589,0.400329
1e-06,0.0332158,29.8843,0.264568,0.0286689,0.445053
1e-06,0.033934,30.028,0.274768,0.254608,0.386971
1e-06,0.0346521,29.8786,0.337828,-0.234185,0.418984
1e-06,0.0353703,29.8479,0.266282,0.0387622,0.379839
1e-06,0.0360885,29.799,0.242168,0.172581,0.375661
1e-06,0.0368067,29.7402,0.273112,0.171299,0.383762
1e-06,0.0375248,29.5774,0.140911,0.105199,0.335397
1e-06,0.038243,29.5297,0.249294,0.184866,0.370283
1e-06,0.0389612,29.5928,0.294083,0.0707246,0.38442
1e-06,0.0396793,29.4386,0.19626,0.0871429,0.304452
1e-06,0.0403975,29.5457,0.19894,0.0925714,0.369589
1e-06,0.0411157,29.4909,0.222073,-0.117067,0.309906
1e-06,0.0418338,29.4352,0.310591,-0.00189702,0.437948
1e-06,0.042552,29.4688,0.284528,0.113648,0.385599
1e-06,0.0432701,29.3962,0.211435,-0.0552163,0.310391
1e-06,0.0439883,29.4588,0.342182,0.0604278,0.411319
1e-06,0.0447065,29.5857,0.260797,0.181633,0.339407
1e-06,0.0454246,29.3145,0.202177,0.0373434,0.288901
1e-06,0.0461428,29.2764,0.239901,-0.0152882,0.324774
1e-06,0.046861,29.3331,0.204667,0.309002,0.279108
1e-06,0.0475791,29.3201,0.217072,0.252225,0.309043
1e-06,0.0482973,29.1476,0.230402,-0.0688095,0.384245
1e-06,0.0490154,29.3222,0.21502,0.0962617,0.318691
1e-06,0.0497336,29.2841,0.114107,-0.0501134,0.229906
1e-06,0.0504517,29.1794,0.215412,-0.0929062,0.333664
1e-06,0.0511699,29.0672,0.185962,0.0197339,0.345628
1e-06,0.051888,29.0135,0.336564,-0.00239651,0.394767
1e-06,0.0526062,29.1472,0.310081,0.137826,0.358472
1e-06,0.0533244,29.0741,0.273674,0.0698312,0.341511
1e-06,0.0540425,29.0469,0.243976,0.133192,0.305442
1e-06,0.0547607,29.143,0.243401,0.140937,0.361471
1e-06,0.0554788,28.9296,0.205204,0.0664694,0.329361
1e-06,0.056197,29.002,0.287555,0.158824,0.358534
1e-06,0.0569151,28.8044,0.200048,0.1666,0.303116
1e-06,0.0576333,28.9804,0.371304,0.355842,0.416556
1e-06,0.0583514,28.8874,0.179344,0.398453,0.370888
1e-06,0.0590695,28.8145,0.261332,0.253242,0.350519
1e-06,0.0597877,28.8357,0.226489,0.168577,0.278821
1e-06,0.0605058,28.7091,0.0951565,0.173796,0.158381
1e-06,0.061224,28.5598,0.180971,-0.171241,0.278467
1e-06,0.0619421,28.7398,0.17704,0.230811,0.294377
1e-06,0.0626603,28.6258,0.164588,0.0651206,0.274732
1e-06,0.0633784,28.6086,0.172317,0.18068,0.241237
1e-06,0.0640965,28.5339,0.21917,0.190261,0.355463
1e-06,0.0648147,28.526,0.186187,-0.0150538,0.293744
1e-06,0.0655328,28.5223,0.251786,0.158997,0.311909
1e-06,0.066251,28.4256,0.17293,-0.0400679,0.320964
1e-06,0.0669691,28.4659,0.210987,0.000681431,0.233339
1e-06,0.0676872,28.4431,0.132557,0.107488,0.212863
1e-06,0.0684054,28.5867,0.248563,0.109493,0.372266
1e-06,0.0691235,28.5349,0.264849,0.263742,0.316407
1e-06,0.0698416,28.5573,0.146055,0.243019,0.257845
1e-06,0.0705598,28.4921,0.180106,0.0935795,0.282568
1e-06,0.0712779,28.3589,0.152631,-0.0135843,0.226306
1e-06,0.071996,28.4986,0.180117,0.233697,0.215325
1e-06,0.0727141,28.4027,0.135428,0.0350711,0.249396
1e-06,0.0734323,28.3892,0.186551,0.0810127,0.232065
1e-06,0.0741504,28.277,0.197344,0.00972222,0.259665
1e-06,0.0748685,28.3645,0.182254,0.0353303,0.238657
1e-06,0.0755866,28.3367,0.208885,-0.0349925,0.273042
1e-06,0.0763047,28.3471,0.121236,0.117236,0.170869
1e-06,0.0770229,28.3337,0.18866,0.161103,0.222806
1e-06,0.077741,28.2751,0.170924,-0.0140533,0.240447
1e-06,0.0784591,28.4335,0.163721,0.190374,0.259498
1e-06,0.0791772,28.2745,0.157775,0.0017316,0.225481
1e-06,0.0798953,28.3326,0.215772,0.0375897,0.267745
1e-06,0.0806134,28.289,0.150819,0.0576341,0.223919
1e-06,0.0813316,28.4008,0.142529,0.186742,0.193964
1e-06,0.0820497,28.2794,0.142497,0.112017,0.195911
1e-06,0.0827678,28.3893,0.175855,0.11034,0.262537
1e-06,0.0834859,28.4498,0.18533,0.249795,0.227037
1e-06,0.084204,28.3894,0.184814,0.0596752,0.243995
1e-06,0.0849221,28.3694,0.140666,0.135762,0.246867
1e-06,0.0856402,28.4378,0.138111,0.127371,0.191638
1e-06,0.0863583,28.4105,0.236081,0.119761,0.316568
1e-06,0.0870764,28.6036,0.136514,0.16271,0.198879
1e-06,0.0877945,28.2887,0.232145,0.0229748,0.275934
1e-06,0.0885126,28.3613,0.169991,0.059411,0.216806
1e-06,0.0892307,28.3733,0.144609,0.0374527,0.233217
1e-05,0.00269319,2742.82,15.5686,154.728,35.1796
1e-05,0.00341137,1365.06,8.63619,68.7,13.3432
1e-05,0.00412955,801.817,7.2256,29.3861,8.78458
1e-05,0.00484774,513.683,4.46191,14.5667,7.87043
1e-05,0.00556592,350.855,5.12517,8.07358,6.14371
1e-05,0.0062841,259.253,2.66886,6.39245,4.08885
1e-05,0.00700229,196.719,2.18897,3.94127,2.83083
1e-05,0.00772047,154.029,2.21835,1.65342,3.11259
1e-05,0.00843865,125.739,1.28516,-0.0243243,2.19539
1e-05,0.00915684,105.389,0.661633,1.20366,0.82364
1e-05,0.00987502,90.5779,1.10217,1.51789,1.43952
1e-05,0.0105932,78.8763,1.04896,0.0870968,1.65226
1e-05,0.0113114,69.4931,0.949998,-0.0574257,1.33898
1e-05,0.0120296,63.0065,0.905009,-0.135514,1.41634
1e-05,0.0127477,57.7241,0.734859,-0.062963,0.96897
1e-05,0.0134659,52.9492,0.66015,-0.1875,0.854609
1e-05,0.0141841,49.2128,0.759715,-0.5208,1.00131
1e-05,0.0149023,46.4984,0.748794,-0.166142,0.859706
1e-05,0.0156205,43.8453,0.3403,-0.364029,0.542855
1e-05,0.0163387,42.1138,0.660906,-0.017931,0.760547
1e-05,0.0170568,39.9808,0.465782,-0.196575,0.560743
1e-05,0.017775,38.642,0.323117,-0.398765,0.598041
1e-05,0.0184932,37.7452,0.335784,0.0815287,0.49607
1e-05,0.0192114,36.5811,0.403495,-0.397633,0.562529
1e-05,0.0199296,35.4912,0.529231,-0.179006,0.743826
1e-05,0.0206477,34.5552,0.542575,-0.339779,0.78895
1e-05,0.0213659,34.0253,0.417988,-0.188421,0.610635
1e-05,0.0220841,33.3913,0.425445,-0.284058,0.764155
1e-05,0.0228023,33.1878,0.519874,-0.232683,0.591058
1e-05,0.0235204,32.599,0.522378,-0.334483,0.64394
1e-05,0.0242386,32.3104,0.339934,-0.152036,0.550606
1e-05,0.0249568,31.9734,0.175741,-0.00607477,0.518427
1e-05,0.025675,31.2934,0.233157,-0.324779,0.447673
1e-05,0.0263931,31.0389,0.295975,-0.187773,0.530732
1e-05,0.0271113,30.903,0.281793,-0.161905,0.344036
1e-05,0.0278295,30.7062,0.297518,-0.584647,0.396847
1e-05,0.0285477,30.449,0.329995,-0.276096,0.454924
1e-05,0.0292658,30.3304,0.409461,-0.18,0.626611
1e-05,0.029984,30.2105,0.364584,-0.253876,0.535296
1e-05,0.0307022,30.2103,0.426502,0.0103321,0.477411
1e-05,0.0314204,29.9247,0.210883,-0.301845,0.291075
1e-05,0.0321385,29.8751,0.22465,-0.398596,0.261469
1e-05,0.0328567,29.8892,0.250022,-0.116949,0.361308
1e-05,0.0335749,29.5704,0.321042,-0.290136,0.652877
1e-05,0.0342931,29.5721,0.228438,-0.391883,0.31128
1e-05,0.0350112,29.6412,0.194443,-0.390096,0.354341
1e-05,0.0357294,29.4845,0.268936,-0.201618,0.340941
1e-05,0.0364476,29.5159,0.244857,-0.118018,0.301882
1e-05,0.0371657,29.3856,0.380975,-0.121713,0.495271
1e-05,0.0378839,29.2749,0.210419,-0.22071,0.315129
1e-05,0.0386021,29.3497,0.290013,-0.0587349,0.358683
1e-05,0.0393202,29.119,0.244006,-0.252161,0.455927
1e-05,0.0400384,29.2301,0.231097,-0.284348,0.350553
1e-05,0.0407566,29.1763,0.291293,-0.250986,0.426549
1e-05,0.0414747,29.3191,0.338351,-0.229363,0.434089
1e-05,0.0421929,29.0514,0.287153,-0.305249,0.439544
1e-05,0.0429111,29.2732,0.285433,-0.240779,0.338401
1e-05,0.0436292,29.0868,0.201458,-0.227441,0.270231
1e-05,0.0443474,29.0661,0.171469,-0.416796,0.262443
1e-05,0.0450655,29.2431,0.153496,-0.0458853,0.238844
1e-05,0.0457837,29.0747,0.191028,-0.318919,0.350496
1e-05,0.0465019,29.1071,0.243659,-0.0091133,0.313662
1e-05,0.04722,28.9993,0.227213,-0.033494,0.314604
1e-05,0.0479382,29.0784,0.226352,0.00551559,0.344694
1e-05,0.0486563,28.8194,0.229098,-0.38776,0.255513
1e-05,0.0493745,29.0248,0.219717,-0.1693,0.270216
1e-05,0.0500927,29.1014,0.14655,-0.233105,0.214776
1e-05,0.0508108,28.9432,0.147971,-0.25518,0.236554
1e-05,0.051529,28.8204,0.204289,-0.227033,0.305561
1e-05,0.0522471,28.869,0.254174,-0.0943052,0.324933
1e-05,0.0529653,28.7931,0.240316,-0.219306,0.342405
1e-05,0.0536834,28.8026,0.205626,-0.120682,0.290785
1e-05,0.0544016,28.7769,0.266062,-0.163462,0.351466
1e-05,0.0551197,28.7679,0.227207,-0.222634,0.308438
1e-05,0.0558379,28.7098,0.227033,-0.151527,0.319387
1e-05,0.056556,28.6947,0.21954,0.00989899,0.369072
1e-05,0.0572742,28.6481,0.187375,0.00200401,0.281049
1e-05,0.0579923,28.5654,0.138619,-0.044227,0.234247
1e-05,0.0587105,28.5962,0.143499,0.0111111,0.25843
1e-05,0.0594286,28.6107,0.261017,0.15428,0.331367
1e-05,0.0601468,28.5053,0.200076,-0.10565,0.307679
1e-05,0.0608649,28.3821,0.161692,-0.260075,0.202151
1e-05,0.0615831,28.3991,0.1429,-0.22316,0.260105
1e-05,0.0623012,28.4226,0.201207,-0.159381,0.294294
1e-05,0.0630193,28.348,0.160227,-0.237634,0.21847
1e-05,0.0637375,28.3402,0.144731,0.0312281,0.238427
1e-05,0.0644556,28.3695,0.132368,-0.0624776,0.285794
1e-05,0.0651738,28.3314,0.209255,-0.142424,0.258418
1e-05,0.0658919,28.2616,0.169004,-0.180454,0.282035
1e-05,0.06661,28.2155,0.24598,-0.217098,0.342424
1e-05,0.0673282,28.3671,0.242455,0.00119863,0.291138
1e-05,0.0680463,28.2205,0.216043,-0.254908,0.353114
1e-05,0.0687644,28.2399,0.249089,-0.0838602,0.315871
1e-05,0.0694826,28.3722,0.285646,0.0577371,0.321455
1e-05,0.0702007,28.2671,0.202754,-0.0781701,0.334799
1e-05,0.0709188,28.3092,0.156997,-0.132733,0.258572
1e-05,0.0716369,28.2966,0.178163,-0.0103834,0.249779
1e-05,0.0723551,28.2128,0.203852,-0.0264386,0.26759
1e-05,0.0730732,28.2311,0.134107,-0.116165,0.256486
1e-05,0.0737913,28.2928,0.105126,-0.0250382,0.24067
1e-05,0.0745094,28.3492,0.182511,0.0909091,0.253761
1e-05,0.0752276,28.2516,0.202166,-0.154776,0.24794
1e-05,0.0759457,28.263,0.203525,0.0203927,0.234907
1e-05,0.0766638,28.17,0.169095,0.0198822,0.21789
1e-05,0.0773819,28.2191,0.225785,-0.066617,0.289062
1e-05,0.0781,28.2009,0.204059,-0.00207407,0.26865
1e-05,0.0788182,28.1081,0.129831,-0.228388,0.233152
1e-05,0.0795363,28.2309,0.147111,-0.0646628,0.185803
1e-05,0.0802544,28.2563,0.192928,-0.0252137,0.222224
1e-05,0.0809725,28.2488,0.130017,0.00925666,0.260357
1e-05,0.0816906,28.2238,0.281419,0.0388652,0.32253
1e-05,0.0824087,28.117,0.200628,-0.187552,0.268223
1e-05,0.0831268,28.2028,0.303757,-0.0876526,0.351329
1e-05,0.0838449,28.2672,0.189575,0.0430748,0.238502
1e-05,0.084563,28.1582,0.258465,-0.0846774,0.313321
1e-05,0.0852812,28.3168,0.143504,0.00754967,0.268209
1e-05,0.0859993,28.2316,0.175743,-0.0814419,0.244331
1e-05,0.0867174,28.3008,0.150976,-0.0564706,0.199169
1e-05,0.0874355,28.4313,0.383839,0.0138714,0.404665
1e-05,0.0881536,28.1299,0.173912,-0.133594,0.257809
1e-05,0.0888717,28.2238,0.204204,-0.162907,0.25482
1e-05,0.0895898,28.2258,0.15999,-0.106769,0.233051
0.0001,0.00305228,1872.35,14.3876,74.41,18.0268
0.0001,0.00377046,1016.99,8.60706,33.1541,11.8914
0.0001,0.00448865,627.323,2.99909,12.314,8.3055
0.0001,0.00520683,416.555,5.05423,7.05102,7.6752
0.0001,0.00592501,295.819,4.44781,2.46226,5.23638
0.0001,0.0066432,222.783,3.01233,1.37241,3.60632
0.0001,0.00736138,171.491,1.71781,0.757971,3.43391
0.0001,0.00807956,136.097,1.45132,-1.48406,2.777
0.0001,0.00879774,112.875,1.74322,-1.56883,2.0416
0.0001,0.00951593,95.3828,1.45812,-0.47931,1.75418
0.0001,0.0102341,82.1989,1.72543,-1.35165,2.03144
0.0001,0.0109523,71.6929,1.21036,-2.02347,1.66736
0.0001,0.0116705,64.3431,0.728376,-1.79541,1.09927
0.0001,0.0123887,58.4362,0.698528,-1.91619,1.02331
0.0001,0.0131068,53.9453,0.517715,-1.54103,0.759498
0.0001,0.013825,49.9432,0.820064,-1.2448,0.969115
0.0001,0.0145432,46.7968,0.591237,-1.23254,0.645714
0.0001,0.0152614,44.1529,0.327027,-1.27029,0.656321
0.0001,0.0159796,41.949,0.321258,-1.13179,0.738319
0.0001,0.0166977,40.3143,0.281403,-0.655102,0.50238
0.0001,0.0174159,38.7767,0.405075,-0.808805,0.514869
0.0001,0.0181341,37.3359,0.327731,-0.853293,0.444073
0.0001,0.0188523,36.3543,0.574029,-1.08333,0.615217
0.0001,0.0195705,35.5703,0.46541,-0.558721,0.677809
0.0001,0.0202886,34.6916,0.383265,-0.567039,0.689531
0.0001,0.0210068,33.96,0.338252,-0.700541,0.520145
0.0001,0.021725,33.2351,0.638549,-0.64973,0.848908
0.0001,0.0224432,32.7764,0.417252,-0.687192,0.60691
0.0001,0.0231614,32.3682,0.327547,-0.768687,0.472814
0.0001,0.0238795,32.1104,0.282651,-0.569811,0.507881
0.0001,0.0245977,31.5717,0.408137,-0.652968,0.485921
0.0001,0.0253159,31.3023,0.332374,-0.542466,0.45174
0.0001,0.0260341,30.9136,0.419947,-0.490213,0.527534
0.0001,0.0267522,30.8312,0.273052,-0.323207,0.421118
0.0001,0.0274704,30.6298,0.22778,-0.57605,0.399091
0.0001,0.0281886,30.3109,0.318699,-0.671484,0.464888
0.0001,0.0289068,30.1781,0.302348,-0.430566,0.450911
0.0001,0.0296249,30.1521,0.222095,-0.374131,0.518667
0.0001,0.0303431,29.9262,0.394592,-0.361818,0.582329
0.0001,0.0310613,29.9176,0.328191,-0.194265,0.430823
0.0001,0.0317795,29.736,0.347946,-0.519485,0.424234
0.0001,0.0324976,29.6481,0.429943,-0.431359,0.471937
0.0001,0.0332158,29.4573,0.1995,-0.398294,0.409727
0.0001,0.033934,29.4048,0.398173,-0.368601,0.482484
0.0001,0.0346521,29.3038,0.210841,-0.808946,0.325382
0.0001,0.0353703,29.3694,0.18017,-0.439739,0.32532
0.0001,0.0360885,29.13,0.226979,-0.496452,0.366054
0.0001,0.0368067,29.2846,0.223846,-0.28429,0.350414
0.0001,0.0375248,29.3003,0.191755,-0.171865,0.35973
0.0001,0.038243,29.1338,0.32504,-0.210979,0.424986
0.0001,0.0389612,28.907,0.227459,-0.615072,0.336202
0.0001,0.0396793,29.0923,0.373476,-0.259143,0.440065
0.0001,0.0403975,29.0403,0.265811,-0.412857,0.409481
0.0001,0.0411157,28.8987,0.301588,-0.709333,0.371054
0.0001,0.0418338,28.9192,0.36069,-0.517886,0.474793
0.0001,0.042552,28.9176,0.291885,-0.437533,0.391059
0.0001,0.0432701,28.9102,0.259634,-0.541221,0.345033
0.0001,0.0439883,28.915,0.329398,-0.483422,0.400746
0.0001,0.0447065,28.9074,0.194986,-0.496684,0.291893
0.0001,0.0454246,28.7195,0.167659,-0.557644,0.26589
0.0001,0.0461428,28.79,0.29657,-0.501754,0.368619
0.0001,0.046861,28.8139,0.279204,-0.210219,0.337591
0.0001,0.0475791,28.8199,0.241997,-0.248009,0.327032
0.0001,0.0482973,28.8393,0.189764,-0.377143,0.361345
0.0001,0.0490154,28.8923,0.205728,-0.333645,0.312497
0.0001,0.0497336,28.8141,0.270559,-0.520181,0.336212
0.0001,0.0504517,28.7272,0.171533,-0.54508,0.307168
0.0001,0.0511699,28.6816,0.154115,-0.365854,0.329588
0.0001,0.051888,28.8109,0.229247,-0.205011,0.308415
0.0001,0.0526062,28.6002,0.232831,-0.40913,0.294214
0.0001,0.0533244,28.5793,0.18819,-0.424895,0.277755
0.0001,0.0540425,28.6463,0.167753,-0.267442,0.24882
0.0001,0.0547607,28.6332,0.281116,-0.368839,0.387871
0.0001,0.0554788,28.6393,0.234287,-0.223866,0.348224
0.0001,0.056197,28.4657,0.193559,-0.377485,0.288659
0.0001,0.0569151,28.468,0.236302,-0.1698,0.328175
0.0001,0.0576333,28.4523,0.212641,-0.172277,0.284374
0.0001,0.0583514,28.4928,0.210074,0.00386847,0.386684
0.0001,0.0590695,28.3758,0.25635,-0.185462,0.346821
0.0001,0.0597877,28.4656,0.18672,-0.201479,0.247605
0.0001,0.0605058,28.4341,0.197852,-0.101156,0.234893
0.0001,0.061224,28.362,0.243257,-0.368985,0.32244
0.0001,0.0619421,28.4173,0.249591,-0.0917117,0.342943
0.0001,0.0626603,28.3319,0.227427,-0.228757,0.316404
0.0001,0.0633784,28.217,0.187166,-0.210912,0.252058
0.0001,0.0640965,28.1941,0.153628,-0.149565,0.319249
0.0001,0.0648147,28.2491,0.190619,-0.291935,0.296572
0.0001,0.0655328,28.2919,0.199049,-0.0714533,0.27113
0.0001,0.066251,28.1097,0.188422,-0.356027,0.329569
0.0001,0.0669691,28.2376,0.19065,-0.227598,0.215126
0.0001,0.0676872,28.1815,0.301582,-0.154077,0.344516
0.0001,0.0684054,28.1843,0.170954,-0.292962,0.325613
0.0001,0.0691235,28.0939,0.164743,-0.177318,0.238974
0.0001,0.0698416,28.288,0.242702,-0.0262987,0.322578
0.0001,0.0705598,28.2011,0.179883,-0.197432,0.282426
0.0001,0.0712779,28.1678,0.166707,-0.204746,0.236028
0.0001,0.071996,28.2541,0.129211,-0.0107644,0.174981
0.0001,0.0727141,28.1299,0.157235,-0.237757,0.261879
0.0001,0.0734323,28.0869,0.135354,-0.221361,0.193322
0.0001,0.0741504,28.1733,0.177721,-0.0939815,0.245084
0.0001,0.0748685,28.1343,0.0913822,-0.194931,0.17914
0.0001,0.0755866,27.9691,0.22616,-0.402564,0.286474
0.0001,0.0763047,28.1579,0.178944,-0.0719168,0.215683
0.0001,0.0770229,28.2,0.142753,0.0274218,0.185548
0.0001,0.077741,28.1071,0.146507,-0.182101,0.223749
0.0001,0.0784591,28.1536,0.178395,-0.0895115,0.268997
0.0001,0.0791772,28.186,0.211443,-0.0867244,0.265814
0.0001,0.0798953,28.2505,0.210071,-0.0444763,0.263172
0.0001,0.0806134,28.1935,0.158544,-0.0378267,0.229193
0.0001,0.0813316,28.2075,0.234164,-0.00662906,0.268589
0.0001,0.0820497,28.151,0.243379,-0.0164365,0.278044
0.0001,0.0827678,28.1027,0.142863,-0.17619,0.241682
0.0001,0.0834859,28.1676,0.231986,-0.0324213,0.266489
0.0001,0.084204,28.1678,0.208198,-0.161976,0.262153
0.0001,0.0849221,28.3501,0.18198,0.116464,0.272531
0.0001,0.0856402,28.1965,0.200197,-0.113957,0.240269
0.0001,0.0863583,28.1369,0.190657,-0.153846,0.284308
0.0001,0.0870764,28.2323,0.126346,-0.208645,0.192041
0.0001,0.0877945,28.1313,0.204716,-0.134396,0.253292
0.0001,0.0885126,28.0799,0.185654,-0.222023,0.229293
0.0001,0.0892307,28.1454,0.168177,-0.190416,0.248519
0.001,0.00269319,2698.756,28.6084,110.66,42.5871
0.001,0.00341137,1337.75,11.2556,41.3839,15.1705
0.001,0.00412955,786.95,5.73768,14.5194,7.60793
0.001,0.00484774,504.567,4.81187,5.45,8.07398
0.001,0.00556592,347.189,4.80509,4.40755,5.87934
0.001,0.0062841,251.791,2.94263,-1.06981,4.27258
0.001,0.00700229,191.575,1.89397,-1.20317,2.60944
0.001,0.00772047,150.755,2.12347,-1.62055,3.04569
0.001,0.00843865,122.307,1.53564,-3.45676,2.3508
0.001,0.00915684,101.462,1.55771,-2.72317,1.63312
0.001,0.00987502,86.9105,1.29952,-2.14947,1.59568
0.001,0.0105932,75.5677,0.927812,-3.22151,1.57813
0.001,0.0113114,66.605,1.30069,-2.94554,1.60691
0.001,0.0120296,60.1187,0.997727,-3.02336,1.47731
0.001,0.0127477,55.2407,0.790559,-2.5463,1.01186
0.001,0.0134659,50.7625,0.703821,-2.37417,0.888776
0.001,0.0141841,48.0056,0.866404,-1.728,1.08448
0.001,0.0149023,44.8331,0.788085,-1.8315,0.894136
0.001,0.0156205,42.3079,0.584497,-1.90144,0.721474
0.001,0.0163387,40.2979,0.394984,-1.83379,0.545571
0.001,0.0170568,39.0521,0.633013,-1.12534,0.705823
0.001,0.017775,37.6926,0.316996,-1.34815,0.594756
0.001,0.0184932,36.4465,0.540355,-1.2172,0.652164
0.001,0.0192114,35.332,0.369208,-1.64675,0.538466
0.001,0.0199296,34.8663,0.331554,-0.803867,0.618966
0.001,0.0206477,34.2022,0.406633,-0.692818,0.702428
0.001,0.0213659,33.2058,0.367099,-1.00789,0.576995
0.001,0.0220841,32.5749,0.435405,-1.10048,0.769745
0.001,0.0228023,32.4785,0.288634,-0.941951,0.402977
0.001,0.0235204,31.8862,0.250094,-1.04729,0.452026
0.001,0.0242386,31.4738,0.36752,-0.988688,0.568052
0.001,0.0249568,31.2159,0.439554,-0.763551,0.656574
0.001,0.025675,30.6956,0.322219,-0.922566,0.499874
0.001,0.0263931,30.6109,0.246177,-0.615721,0.504657
0.001,0.0271113,30.3727,0.432066,-0.692208,0.47501
0.001,0.0278295,30.4726,0.279986,-0.818257,0.383879
0.001,0.0285477,30.0287,0.469183,-0.696414,0.564084
0.001,0.0292658,29.9832,0.376229,-0.5272,0.605418
0.001,0.029984,29.745,0.336468,-0.71938,0.516557
0.001,0.0307022,29.6232,0.199361,-0.576753,0.292852
0.001,0.0314204,29.5679,0.268671,-0.658672,0.335317
0.001,0.0321385,29.594,0.368598,-0.679649,0.392126
0.001,0.0328567,29.4092,0.359162,-0.596949,0.443881
0.001,0.0335749,29.2728,0.269472,-0.587755,0.629123
0.001,0.0342931,29.2143,0.175703,-0.749675,0.274923
0.001,0.0350112,29.1141,0.297976,-0.917252,0.420166
0.001,0.0357294,29.0492,0.332543,-0.636893,0.393064
0.001,0.0364476,29.1435,0.304812,-0.49039,0.352262
0.001,0.0371657,29.074,0.284324,-0.433333,0.425431
0.001,0.0378839,28.9595,0.442062,-0.536095,0.500448
0.001,0.0386021,28.9431,0.271865,-0.465361,0.344175
0.001,0.0393202,28.9297,0.280355,-0.441499,0.476372
0.001,0.0400384,28.8397,0.191138,-0.674783,0.3256
0.001,0.0407566,28.9073,0.270872,-0.52,0.412873
0.001,0.0414747,28.8953,0.220405,-0.653186,0.350042
0.001,0.0421929,28.8169,0.271515,-0.539779,0.429491
0.001,0.0429111,28.8091,0.258183,-0.704935,0.315756
0.001,0.0436292,28.8266,0.239813,-0.487599,0.299917
0.001,0.0443474,28.7494,0.148479,-0.733592,0.248034
0.001,0.0450655,28.6661,0.24115,-0.622943,0.302719
0.001,0.0457837,28.6604,0.185362,-0.73317,0.347441
0.001,0.0465019,28.7611,0.281502,-0.355172,0.343886
0.001,0.04722,28.7458,0.144193,-0.286988,0.261039
0.001,0.0479382,28.6144,0.236883,-0.458513,0.3517
0.001,0.0486563,28.5432,0.248816,-0.663972,0.273332
0.001,0.0493745,28.5767,0.223969,-0.617381,0.273684
0.001,0.0500927,28.6018,0.158007,-0.732648,0.222751
0.001,0.0508108,28.5405,0.20796,-0.657883,0.278046
0.001,0.051529,28.6468,0.217971,-0.400659,0.314873
0.001,0.0522471,28.6658,0.252882,-0.297494,0.323923
0.001,0.0529653,28.5879,0.314812,-0.424512,0.398241
0.001,0.0536834,28.5109,0.183407,-0.412367,0.275521
0.001,0.0544016,28.5263,0.130153,-0.414103,0.263969
0.001,0.0551197,28.4562,0.194714,-0.534362,0.285349
0.001,0.0558379,28.4829,0.307666,-0.378411,0.380949
0.001,0.056556,28.4313,0.249799,-0.253535,0.387835
0.001,0.0572742,28.422,0.230933,-0.224048,0.311784
0.001,0.0579923,28.2761,0.108759,-0.333464,0.217911
0.001,0.0587105,28.2044,0.281876,-0.380651,0.35447
0.001,0.0594286,28.3072,0.201451,-0.149222,0.286803
0.001,0.0601468,28.3842,0.23602,-0.226742,0.332177
0.001,0.0608649,28.2505,0.23528,-0.391714,0.264721
0.001,0.0615831,28.189,0.204135,-0.433214,0.29817
0.001,0.0623012,28.3601,0.238641,-0.221858,0.321052
0.001,0.0630193,28.2819,0.135844,-0.303763,0.201271
0.001,0.0637375,28.2144,0.223586,-0.0945614,0.293072
0.001,0.0644556,28.2722,0.206318,-0.159785,0.326687
0.001,0.0651738,28.1014,0.275683,-0.372371,0.314632
0.001,0.0658919,28.0618,0.224526,-0.380279,0.318423
0.001,0.06661,28.1665,0.209597,-0.266149,0.317299
0.001,0.0673282,28.4555,1.13094,0.0895548,1.14237
0.001,0.0680463,28.1193,0.186853,-0.356073,0.33605
0.001,0.0687644,28.1812,0.209752,-0.142596,0.285876
0.001,0.0694826,28.1308,0.220324,-0.183694,0.265108
0.001,0.0702007,28.0872,0.189064,-0.258106,0.32669
0.001,0.0709188,28.1295,0.115805,-0.312439,0.235843
0.001,0.0716369,28.1375,0.294247,-0.169489,0.342387
0.001,0.0723551,28.203,0.164735,-0.0362364,0.239137
0.001,0.0730732,28.1439,0.181193,-0.203328,0.283957
0.001,0.0737913,28.1127,0.196783,-0.205191,0.292564
0.001,0.0745094,27.9785,0.180342,-0.279732,0.252205
0.001,0.0752276,28.1331,0.229314,-0.273284,0.270533
0.001,0.0759457,28.1106,0.191646,-0.132024,0.224694
0.001,0.0766638,28.0253,0.221977,-0.124742,0.261068
0.001,0.0773819,28.032,0.264723,-0.253651,0.3204
0.001,0.0781,28.0247,0.226399,-0.178222,0.285988
0.001,0.0788182,28.033,0.206129,-0.303566,0.28283
0.001,0.0795363,28.0111,0.182424,-0.284457,0.214848
0.001,0.0802544,28.0996,0.137552,-0.181909,0.176303
0.001,0.0809725,28.0028,0.159738,-0.236746,0.276401
0.001,0.0816906,28.019,0.0928839,-0.165957,0.18291
0.001,0.0824087,28.0679,0.195745,-0.236653,0.26459
0.001,0.0831268,28.0908,0.194212,-0.199729,0.262454
0.001,0.0838449,28.0093,0.23614,-0.21482,0.276959
0.001,0.084563,27.9669,0.205715,-0.275941,0.271449
0.001,0.0852812,28.1597,0.214409,-0.149536,0.311952
0.001,0.0859993,28.2159,0.177779,-0.0971963,0.245799
0.001,0.0867174,28.1452,0.176123,-0.212026,0.218847
0.001,0.0874355,28.1526,0.203365,-0.264817,0.240372
0.001,0.0881536,28.0204,0.166283,-0.243099,0.252725
0.001,0.0888717,28.0521,0.162543,-0.334586,0.222832
0.001,0.0895898,28.0515,0.277939,-0.281098,0.325524
0.01,0.00305228,1855.19,10.106,57.2533,14.8356
0.01,0.00377046,1007.09,9.57722,23.2486,12.6114
0.01,0.00448865,622.579,7.03741,7.56977,10.4648
0.01,0.00520683,416.816,3.09769,7.31224,6.55432
0.01,0.00592501,291.772,4.98391,-1.58491,5.69877
0.01,0.0066432,220.019,1.90709,-1.39138,2.75107
0.01,0.00736138,170.457,1.68964,-0.276812,3.41991
0.01,0.00807956,136.206,1.64235,-1.37536,2.88144
0.01,0.00879774,110.517,1.2378,-3.92727,1.63139
0.01,0.00951593,94.0069,1.43575,-1.85517,1.73563
0.01,0.0102341,81.1967,1.3199,-2.35385,1.70052
0.01,0.0109523,71.1,0.815111,-2.61633,1.40695
0.01,0.0116705,63.8248,0.923352,-2.31376,1.23711
0.01,0.0123887,57.74,0.732331,-2.61238,1.04668
0.01,0.0131068,53.0915,0.702167,-2.39487,0.89546
0.01,0.013825,49.2008,0.557864,-1.9872,0.760191
0.01,0.0145432,46.4357,0.700191,-1.59365,0.746762
0.01,0.0152614,43.671,0.411505,-1.75217,0.702244
0.01,0.0159796,41.6377,0.475809,-1.44305,0.817498
0.01,0.0166977,39.7789,0.535943,-1.19048,0.678552
0.01,0.0174159,38.4629,0.63,-1.12264,0.705624
0.01,0.0181341,37.191,0.531806,-0.998204,0.610418
0.01,0.0188523,35.9062,0.389484,-1.53148,0.447973
0.01,0.0195705,35.3081,0.448971,-0.82093,0.666629
0.01,0.0202886,34.4402,0.279394,-0.818436,0.637669
0.01,0.0210068,33.7351,0.432473,-0.925405,0.585806
0.01,0.021725,33.1341,0.343741,-0.750811,0.65655
0.01,0.0224432,32.5251,0.468696,-0.938424,0.643364
0.01,0.0231614,32.2364,0.290558,-0.900505,0.447984
0.01,0.0238795,31.7108,0.275684,-0.96934,0.504037
0.01,0.0245977,31.2658,0.328956,-0.958904,0.42161
0.01,0.0253159,31.1658,0.283613,-0.678995,0.417173
0.01,0.0260341,30.9089,0.233417,-0.494894,0.3955
0.01,0.0267522,30.7755,0.462062,-0.378903,0.562392
0.01,0.0274704,30.484,0.365072,-0.721849,0.490579
0.01,0.0281886,30.1316,0.37613,-0.850781,0.505989
0.01,0.0289068,30.2253,0.394086,-0.383396,0.516924
0.01,0.0296249,29.9992,0.335035,-0.527027,0.576141
0.01,0.0303431,29.7393,0.232909,-0.548727,0.487495
0.01,0.0310613,29.6211,0.243912,-0.490681,0.370665
0.01,0.0317795,29.7096,0.324385,-0.545956,0.405134
0.01,0.0324976,29.4436,0.23035,-0.635889,0.301553
0.01,0.0332158,29.5406,0.284725,-0.315017,0.457323
0.01,0.033934,29.3584,0.306043,-0.415017,0.40977
0.01,0.0346521,29.2457,0.321478,-0.867093,0.405916
0.01,0.0353703,29.2368,0.311589,-0.572313,0.412868
0.01,0.0360885,29.0861,0.21263,-0.540323,0.357334
0.01,0.0368067,29.2199,0.328811,-0.348943,0.425205
0.01,0.0375248,29.145,0.210282,-0.327217,0.369938
0.01,0.038243,29.249,0.281719,-0.0958457,0.392846
0.01,0.0389612,28.9588,0.225096,-0.563188,0.334607
0.01,0.0396793,29.0611,0.2568,-0.290286,0.346583
0.01,0.0403975,28.8049,0.308923,-0.648286,0.438694
0.01,0.0411157,28.9768,0.312901,-0.6312,0.380306
0.01,0.0418338,28.7816,0.228856,-0.655556,0.384326
0.01,0.042552,28.6577,0.246477,-0.697375,0.358443
0.01,0.0432701,28.9282,0.213088,-0.523155,0.311519
0.01,0.0439883,28.8487,0.220893,-0.549733,0.317629
0.01,0.0447065,28.837,0.221182,-0.567092,0.310007
0.01,0.0454246,28.8514,0.316634,-0.425815,0.377948
0.01,0.0461428,28.7356,0.263326,-0.55614,0.342441
0.01,0.046861,28.8998,0.182491,-0.124331,0.263278
0.01,0.0475791,28.6482,0.271796,-0.419672,0.349657
0.01,0.0482973,28.7114,0.281031,-0.505,0.416579
0.01,0.0490154,28.7558,0.225223,-0.470093,0.325662
0.01,0.0497336,28.7204,0.299864,-0.613832,0.360215
0.01,0.0504517,28.5211,0.255335,-0.751259,0.360728
0.01,0.0511699,28.5481,0.159426,-0.499335,0.332105
0.01,0.051888,28.6584,0.168481,-0.357516,0.266368
0.01,0.0526062,28.5943,0.277715,-0.415,0.330874
0.01,0.0533244,28.5259,0.15754,-0.47827,0.257975
0.01,0.0540425,28.5668,0.218463,-0.346934,0.285475
0.01,0.0547607,28.6051,0.204488,-0.396945,0.336501
0.01,0.0554788,28.5489,0.167325,-0.314201,0.307193
0.01,0.056197,28.6243,0.143904,-0.218864,0.258007
0.01,0.0569151,28.3548,0.194118,-0.283,0.299236
0.01,0.0576333,28.4487,0.197961,-0.175842,0.273571
0.01,0.0583514,28.4766,0.279351,-0.0123791,0.428288
0.01,0.0590695,28.3919,0.265645,-0.169352,0.353746
0.01,0.0597877,28.4562,0.345789,-0.210906,0.382118
0.01,0.0605058,28.5534,0.318148,0.0181118,0.342414
0.01,0.061224,28.3639,0.285073,-0.367105,0.35505
0.01,0.0619421,28.2409,0.252682,-0.268108,0.345199
0.01,0.0626603,28.3186,0.181907,-0.242115,0.285444
0.01,0.0633784,28.3299,0.152786,-0.0980322,0.227697
0.01,0.0640965,28.3122,0.171269,-0.0314783,0.328103
0.01,0.0648147,28.2462,0.198498,-0.294803,0.301697
0.01,0.0655328,28.0083,0.188873,-0.355017,0.26375
0.01,0.066251,28.1334,0.205943,-0.332258,0.339891
0.01,0.0669691,28.2257,0.211417,-0.239523,0.233728
0.01,0.0676872,28.2802,0.162185,-0.0554077,0.232472
0.01,0.0684054,28.1682,0.185225,-0.309002,0.333326
0.01,0.0691235,28.1765,0.120254,-0.094702,0.210783
0.01,0.0698416,28.2354,0.159856,-0.0788961,0.265906
0.01,0.0705598,28.2239,0.143435,-0.174639,0.26073
0.01,0.0712779,28.1645,0.125329,-0.20802,0.208867
0.01,0.071996,28.1337,0.244567,-0.131201,0.271543
0.01,0.0727141,28.1594,0.160547,-0.208215,0.263881
0.01,0.0734323,28.1954,0.165512,-0.112816,0.215515
0.01,0.0741504,28.0858,0.15145,-0.181481,0.226756
0.01,0.0748685,28.1697,0.165252,-0.159447,0.225939
0.01,0.0755866,28.1217,0.206144,-0.249925,0.270951
0.01,0.0763047,28.2009,0.152601,-0.0289747,0.194384
0.01,0.0770229,28.1128,0.159298,-0.0597615,0.198559
0.01,0.077741,28.1228,0.190412,-0.16642,0.254668
0.01,0.0784591,27.9852,0.176625,-0.257902,0.267826
0.01,0.0791772,28.1126,0.177006,-0.160173,0.239332
0.01,0.0798953,28.1016,0.232823,-0.1934,0.281667
0.01,0.0806134,28.0702,0.141504,-0.16121,0.217754
0.01,0.0813316,28.1288,0.150731,-0.0853315,0.200068
0.01,0.0820497,28.0333,0.163792,-0.134116,0.211904
0.01,0.0827678,28.168,0.165931,-0.110884,0.255995
0.01,0.0834859,28.0808,0.14562,-0.119152,0.19597
0.01,0.084204,28.0608,0.132692,-0.269012,0.207328
0.01,0.0849221,28.1032,0.230117,-0.130364,0.306774
0.01,0.0856402,28.1431,0.171231,-0.167344,0.216727
0.01,0.0863583,28.1442,0.171209,-0.146552,0.27165
0.01,0.0870764,28.0854,0.177697,-0.355484,0.229113
0.01,0.0877945,28.1009,0.188622,-0.164807,0.240471
0.01,0.0885126,28.0689,0.188598,-0.233035,0.231683
0.01,0.0892307,28.0922,0.20019,-0.243632,0.271209
50.0,0.00269319,6932.1,148.412,4344.004,151.727
50.0,0.00341137,5288.14,143.38,3991.78,143.74
50.0,0.00412955,4384.69,119.228,3612.26,119.332
50.0,0.00484774,3715.85,115.594,3216.73,115.776
50.0,0.00556592,3175.34,103.851,2832.55,103.906
50.0,0.0062841,2700.99,85.3591,2448.13,85.4153
50.0,0.00700229,2283.46,76.5606,2090.68,76.5816
50.0,0.00772047,1906.25,62.3588,1753.87,62.397
50.0,0.00843865,1568.99,51.8255,1443.23,51.8561
50.0,0.00915684,1272.03,42.7192,1167.85,42.722
50.0,0.00987502,1011.4,34.2853,922.336,34.2978
50.0,0.0105932,792.474,25.5159,713.685,25.5479
50.0,0.0113114,601.631,18.931,532.08,18.9545
50.0,0.0120296,450.303,14.4061,387.161,14.4472
50.0,0.0127477,326.812,9.55869,269.025,9.57953
50.0,0.0134659,232.832,6.90847,179.695,6.92975
50.0,0.0141841,162.092,3.2138,112.358,3.27932
50.0,0.0149023,112.108,2.72955,65.4433,2.76204
50.0,0.0156205,80.005,1.11106,35.7957,1.18884
50.0,0.0163387,60.5248,0.746833,18.3931,0.836298
50.0,0.0170568,50.7295,0.568,10.5521,0.648154
50.0,0.017775,47.2765,0.394809,8.2358,0.639627
50.0,0.0184932,47.9554,0.653374,10.2917,0.748487
50.0,0.0192114,50.0101,0.758635,13.0314,0.853907
50.0,0.0199296,53.4586,0.396299,17.7884,0.65593
50.0,0.0206477,55.4066,0.971374,20.5116,1.12766
50.0,0.0213659,56.9468,0.817677,22.7332,0.930998
50.0,0.0220841,56.4981,0.874838,22.8227,1.08087
50.0,0.0228023,55.0088,0.514775,21.5883,0.586578
50.0,0.0235204,52.6616,0.682688,19.7281,0.779644
50.0,0.0242386,49.5,0.628664,17.0376,0.763433
50.0,0.0249568,45.5603,0.477137,13.5808,0.682306
50.0,0.025675,41.815,0.306154,10.1969,0.489673
50.0,0.0263931,38.7747,0.541119,7.54803,0.697771
50.0,0.0271113,35.9558,0.492091,4.89091,0.530195
50.0,0.0278295,33.9295,0.359945,2.63859,0.445568
50.0,0.0285477,32.4936,0.256819,1.76853,0.404987
50.0,0.0292658,31.8656,0.365392,1.3552,0.598744
50.0,0.029984,31.9744,0.201485,1.51008,0.4407
50.0,0.0307022,32.1672,0.207116,1.96716,0.298185
50.0,0.0314204,32.7664,0.525459,2.53985,0.56246
50.0,0.0321385,33.2677,0.271748,2.99404,0.302895
50.0,0.0328567,33.7264,0.264945,3.72034,0.371791
50.0,0.0335749,34.1061,0.445928,4.24558,0.722518
50.0,0.0342931,34.1708,0.36443,4.20682,0.421332
50.0,0.0350112,34.3629,0.384249,4.33163,0.485177
50.0,0.0357294,33.9356,0.211416,4.24951,0.297676
50.0,0.0364476,33.3886,0.285036,3.75465,0.335296
50.0,0.0371657,32.7963,0.372813,3.28899,0.489021
50.0,0.0378839,32.3601,0.236168,2.8645,0.332875
50.0,0.0386021,31.5705,0.24483,2.16205,0.323246
50.0,0.0393202,30.8288,0.277281,1.45764,0.474569
50.0,0.0400384,30.3362,0.305788,0.821739,0.403718
50.0,0.0407566,30.0242,0.282529,0.596901,0.420612
50.0,0.0414747,29.7144,0.351666,0.165928,0.444545
50.0,0.0421929,29.6682,0.206634,0.311602,0.391714
50.0,0.0429111,29.6353,0.280424,0.121299,0.334187
50.0,0.0436292,29.8108,0.259859,0.49657,0.316175
50.0,0.0443474,29.8364,0.241836,0.353488,0.312985
50.0,0.0450655,29.992,0.274801,0.702993,0.330153
50.0,0.0457837,30.0413,0.138431,0.647666,0.324837
50.0,0.0465019,30.0608,0.290168,0.944581,0.351016
50.0,0.04722,30.1386,0.296922,1.10578,0.368121
50.0,0.0479382,29.8388,0.212218,0.765947,0.335582
50.0,0.0486563,30.0603,0.214257,0.853118,0.242295
50.0,0.0493745,29.8449,0.239011,0.65079,0.286125
50.0,0.0500927,29.7048,0.237127,0.37032,0.284395
50.0,0.0508108,29.3574,0.187284,0.159009,0.26294
50.0,0.051529,29.2897,0.229884,0.242198,0.323234
50.0,0.0522471,29.1786,0.274334,0.215262,0.340934
50.0,0.0529653,29.0755,0.18198,0.0631236,0.304313
50.0,0.0536834,28.9004,0.124518,-0.0228145,0.240372
50.0,0.0544016,28.9688,0.157278,0.0284188,0.278345
50.0,0.0551197,28.907,0.171343,-0.0835391,0.269943
50.0,0.0558379,28.7603,0.21427,-0.101018,0.310444
50.0,0.056556,28.7103,0.281614,0.0254545,0.409051
50.0,0.0572742,28.7723,0.282265,0.126253,0.351501
50.0,0.0579923,28.6348,0.173658,0.0252446,0.256541
50.0,0.0587105,28.8519,0.22049,0.266858,0.307913
50.0,0.0594286,28.7377,0.163722,0.281323,0.261684
50.0,0.0601468,28.7678,0.160737,0.156874,0.283676
50.0,0.0608649,28.5936,0.153305,-0.0485876,0.195507
50.0,0.0615831,28.654,0.231951,0.0317774,0.317861
50.0,0.0623012,28.5146,0.222332,-0.0673953,0.309121
50.0,0.0630193,28.5441,0.224577,-0.0415771,0.269242
50.0,0.0637375,28.3114,0.251178,0.00245614,0.314628
50.0,0.0644556,28.414,0.152471,-0.0179533,0.295642
50.0,0.0651738,28.3066,0.167903,-0.167201,0.226238
50.0,0.0658919,28.3859,0.186802,-0.0561955,0.293047
50.0,0.06661,28.3473,0.183371,-0.0853195,0.300621
50.0,0.0673282,28.3324,0.20861,-0.0335616,0.263619
50.0,0.0680463,28.3028,0.134845,-0.172546,0.310159
50.0,0.0687644,28.2413,0.07091,-0.0825291,0.206779
50.0,0.0694826,28.2779,0.20078,-0.0366057,0.249103
50.0,0.0702007,28.2575,0.263676,-0.087801,0.374842
50.0,0.0709188,28.3453,0.185898,-0.096563,0.277073
50.0,0.0716369,28.2639,0.164021,-0.043131,0.239896
50.0,0.0723551,28.2453,0.16486,0.00606532,0.239222
50.0,0.0730732,28.2718,0.240347,-0.0754358,0.324911
50.0,0.0737913,28.162,0.184012,-0.155878,0.284131
50.0,0.0745094,28.2541,0.211577,-0.00417288,0.275407
50.0,0.0752276,28.3343,0.209507,-0.0720896,0.253961
50.0,0.0759457,28.2343,0.196982,-0.00830816,0.229262
50.0,0.0766638,28.1054,0.1562,-0.0446244,0.208041
50.0,0.0773819,28.1708,0.172909,-0.114903,0.249951
50.0,0.0781,28.1502,0.176067,-0.0527407,0.248057
50.0,0.0788182,28.0909,0.160856,-0.245649,0.25175
50.0,0.0795363,28.1591,0.155734,-0.13651,0.192702
50.0,0.0802544,28.2974,0.23808,0.0159544,0.262382
50.0,0.0809725,28.1149,0.191873,-0.124684,0.296136
50.0,0.0816906,28.1501,0.155743,-0.0348936,0.22155
50.0,0.0824087,27.9943,0.103975,-0.310235,0.206162
50.0,0.0831268,28.1805,0.224799,-0.110041,0.285829
50.0,0.0838449,28.1799,0.215693,-0.0441828,0.259746
50.0,0.084563,28.2519,0.233812,0.00900538,0.293315
50.0,0.0852812,28.2612,0.163498,-0.0480795,0.279417
50.0,0.0859993,28.2877,0.226489,-0.0253672,0.283036
50.0,0.0867174,28.2544,0.164907,-0.102876,0.209926
50.0,0.0874355,28.2151,0.151038,-0.20227,0.198076
50.0,0.0881536,28.2108,0.10375,-0.0527344,0.216758
50.0,0.0888717,28.104,0.152296,-0.282707,0.215471
50.0,0.0895898,28.128,0.195452,-0.204598,0.258684
50.0,0.0897693,28.11,0.16763,-0.228607,0.230313